Folder: jupyter/jupiter-notebooks/src

Note: README.md
# jupyter
Jupyter Projects for data science and visualization.
Projects are focused on Tribology and Materials Science

Using ``matplotlib``, ``plotly``, ``seaborn``, ``pandas`` and ``numpy``

[Click here](jupiter-notebooks/00-summary.ipynb) to see the Project Summary (in Portuguese)

File: PMoida.txt
/////////////////////////////////////////////////////////////////////////////////
/// Profile Data Ascii Dump (XRD)                                             ///
/////////////////////////////////////////////////////////////////////////////////

  Group     : 2019_05_08_Caio
  Data      : PMoida
  File Name : PMoida.RAW

# Profile Datafile
          comment             =
          date & time         = 05-08-19 09:36:25

# Measurement Condition
    X-ray tube
          target              = Cu
          voltage             = 40.0 (kV)
          current             = 40.0 (mA)
    Slits
          divergence slit     = 1.00000 (mm)
          scatter slit        = 1.00000 (mm)
          receiving slit      = 0.30000 (mm)
    Scanning
          drive axis          = Theta-2Theta
          scan range          =    5.000 -  120.000
          scan mode           = Continuous Scan
          scan speed          =   2.0000 (deg/min)
          sampling pitch      =   0.0200 (deg)
          preset time         =   0.60 (sec)

# Data      [ Total No. = 5751 ]
  <2Theta>   <   I   >
     5.0000        30
     5.4000        24
     5.8000        24
     6.2000        26
     6.6000        26
     7.0000        16
     7.4000        24
     7.8000        32
     8.2000        20
     8.6000        28
     9.0000        36
     9.4000        30
     9.8000        24
    10.2000        22
    10.6000        32
    11.0000        28
    11.4000        36
    11.8000        20
    12.2000        44
    12.6000        26
    13.0000        42
    13.4000        32
    13.8000        28
    14.2000        46
    14.6000        42
    15.0000        46
    15.4000        54
    15.8000        46
    16.2000        50
    16.6000        90
    17.0000        50
    17.4000        44
    17.8000        44
    18.2000        46
    18.6000        50
    19.0000        56
    19.4000        48
    19.8000        58
    20.2000        68
    20.6000        54
    21.0000        66
    21.4000        58
    21.8000        50
    22.2000        58
    22.6000        52
    23.0000        52
    23.4000        64
    23.8000        76
    24.2000        74
    24.6000        50
    25.0000        90
    25.4000        84
    25.8000        92
    26.2000        76
    26.6000        68
    27.0000        72
    27.4000        76
    27.8000        64
    28.2000        54
    28.6000        74
    29.0000        98
    29.4000        58
    29.8000        44
    30.2000        48
    30.6000        60
    31.0000        40
    31.4000        36
    31.8000        32
    32.2000        34
    32.6000        26
    33.0000        34
    33.4000        42
    33.8000        50
    34.2000        24
    34.6000        30
    35.0000        26
    35.4000        44
    35.8000        32
    36.2000        28
    36.6000        34
    37.0000        24
    37.4000        30
    37.8000        34
    38.2000        40
    38.6000        18
    39.0000        24
    39.4000        26
    39.8000        26
    40.2000        24
    40.6000        22
    41.0000        20
    41.4000        20
    41.8000        26
    42.2000        24
    42.6000        36
    43.0000        34
    43.4000        28
    43.8000        20
    44.2000        26
    44.6000        20
    45.0000        30
    45.4000        18
    45.8000        20
    46.2000        24
    46.6000        18
    47.0000        18
    47.4000        20
    47.8000        16
    48.2000        20
    48.6000        20
    49.0000        14
    49.4000        28
    49.8000        18
    50.2000        28
    50.6000        16
    51.0000        16
    51.4000        26
    51.8000        20
    52.2000        14
    52.6000        16
    53.0000        20
    53.4000        16
    53.8000        18
    54.2000        16
    54.6000        26
    55.0000        14
    55.4000        22
    55.8000        12
    56.2000        16
    56.6000        20
    57.0000        26
    57.4000        20
    57.8000        16
    58.2000        18
    58.6000        16
    59.0000        12
    59.4000         8
    59.8000        14
    60.2000        20
    60.6000        16
    61.0000        18
    61.4000        18
    61.8000        14
    62.2000        16
    62.6000        26
    63.0000        14
    63.4000        12
    63.8000        10
    64.2000        14
    64.6000        16
    65.0000        18
    65.4000        18
    65.8000        16
    66.2000        16
    66.6000         8
    67.0000        18
    67.4000        16
    67.8000        20
    68.2000        10
    68.6000        12
    69.0000        12
    69.4000        14
    69.8000         8
    70.2000        10
    70.6000        24
    71.0000        18
    71.4000        14
    71.8000        10
    72.2000         8
    72.6000        10
    73.0000        18
    73.4000        10
    73.8000        10
    74.2000         6
    74.6000         8
    75.0000        16
    75.4000        10
    75.8000        18
    76.2000        18
    76.6000        12
    77.0000        10
    77.4000        22
    77.8000        14
    78.2000        12
    78.6000        12
    79.0000        18
    79.4000        14
    79.8000        14
    80.2000         8
    80.6000        12
    81.0000        14
    81.4000        10
    81.8000         6
    82.2000        16
    82.6000        10
    83.0000        12
    83.4000        12
    83.8000        10
    84.2000        12
    84.6000        16
    85.0000        22
    85.4000        18
    85.8000        14
    86.2000        10
    86.6000        10
    87.0000        12
    87.4000         6
    87.8000        18
    88.2000         8
    88.6000         4
    89.0000        18
    89.4000        10
    89.8000         8
    90.2000        12
    90.6000        10
    91.0000        14
    91.4000        12
    91.8000        12
    92.2000        10
    92.6000         4
    93.0000        10
    93.4000        16
    93.8000        10
    94.2000        14
    94.6000         8
    95.0000        10
    95.4000        10
    95.8000         2
    96.2000         6
    96.6000         6
    97.0000        12
    97.4000         8
    97.8000         8
    98.2000        16
    98.6000        10
    99.0000        14
    99.4000        12
    99.8000         8
   100.2000        14
   100.6000         2
   101.0000         6
   101.4000        14
   101.8000         6
   102.2000        10
   102.6000        16
   103.0000         6
   103.4000        10
   103.8000        12
   104.2000        16
   104.6000        12
   105.0000        10
   105.4000         8
   105.8000        10
   106.2000         4
   106.6000        12
   107.0000         8
   107.4000         6
   107.8000        12
   108.2000         6
   108.6000        10
   109.0000        14
   109.4000         2
   109.8000        12
   110.2000        12
   110.6000        10
   111.0000         6
   111.4000        12
   111.8000        10
   112.2000         8
   112.6000         8
   113.0000         8
   113.4000        10
   113.8000         8
   114.2000        10
   114.6000        10
   115.0000        12
   115.4000        12
   115.8000        10
   116.2000        10
   116.6000        16
   117.0000        12
   117.4000        16
   117.8000        10
   118.2000        10
   118.6000        10
   119.0000         6
   119.4000        10
   119.8000         2
   120.0000        14

File: PNMoida.txt
/////////////////////////////////////////////////////////////////////////////////
/// Profile Data Ascii Dump (XRD)                                             ///
/////////////////////////////////////////////////////////////////////////////////

  Group     : 2019_05_08_Caio
  Data      : PNMoida
  File Name : PNMoida.RAW

# Profile Datafile
          comment             =
          date & time         = 05-09-19 11:43:58

# Measurement Condition
    X-ray tube
          target              = Cu
          voltage             = 40.0 (kV)
          current             = 40.0 (mA)
    Slits
          divergence slit     = 1.00000 (mm)
          scatter slit        = 1.00000 (mm)
          receiving slit      = 0.30000 (mm)
    Scanning
          drive axis          = Theta-2Theta
          scan range          =    5.000 -  120.000
          scan mode           = Continuous Scan
          scan speed          =   2.0000 (deg/min)
          sampling pitch      =   0.0200 (deg)
          preset time         =   0.60 (sec)

# Data      [ Total No. = 5751 ]
  <2Theta>   <   I   >
     5.0000        34
     5.4000        42
     5.8000        26
     6.2000        28
     6.6000        34
     7.0000        24
     7.4000        30
     7.8000        30
     8.2000        30
     8.6000        28
     9.0000        36
     9.4000        38
     9.8000        30
    10.2000        42
    10.6000        26
    11.0000        32
    11.4000        34
    11.8000        28
    12.2000        52
    12.6000        30
    13.0000        58
    13.4000        42
    13.8000        46
    14.2000        54
    14.6000        70
    15.0000        58
    15.4000        60
    15.8000        68
    16.2000        62
    16.6000        94
    17.0000        68
    17.4000        56
    17.8000        50
    18.2000        56
    18.6000        66
    19.0000        58
    19.4000        64
    19.8000        90
    20.2000        68
    20.6000        82
    21.0000        80
    21.4000        84
    21.8000        84
    22.2000        68
    22.6000        88
    23.0000        88
    23.4000        80
    23.8000       106
    24.2000        92
    24.6000       100
    25.0000       136
    25.4000       122
    25.8000        98
    26.2000        78
    26.6000        76
    27.0000        98
    27.4000        74
    27.8000        78
    28.2000        84
    28.6000        90
    29.0000       114
    29.4000        72
    29.8000        68
    30.2000        70
    30.6000        56
    31.0000        54
    31.4000        46
    31.8000        44
    32.2000        44
    32.6000        34
    33.0000        62
    33.4000        46
    33.8000        58
    34.2000        46
    34.6000        44
    35.0000        36
    35.4000        40
    35.8000        40
    36.2000        48
    36.6000        34
    37.0000        38
    37.4000        28
    37.8000        42
    38.2000        26
    38.6000        34
    39.0000        36
    39.4000        38
    39.8000        18
    40.2000        28
    40.6000        24
    41.0000        38
    41.4000        28
    41.8000        24
    42.2000        28
    42.6000        36
    43.0000        34
    43.4000        28
    43.8000        30
    44.2000        42
    44.6000        22
    45.0000        40
    45.4000        20
    45.8000        24
    46.2000        20
    46.6000        26
    47.0000        22
    47.4000        28
    47.8000        22
    48.2000        26
    48.6000        26
    49.0000        28
    49.4000        22
    49.8000        26
    50.2000        20
    50.6000        22
    51.0000        20
    51.4000        22
    51.8000        22
    52.2000        22
    52.6000        26
    53.0000        22
    53.4000        26
    53.8000        28
    54.2000        24
    54.6000        24
    55.0000        20
    55.4000        18
    55.8000        16
    56.2000        30
    56.6000        18
    57.0000        12
    57.4000        28
    57.8000        20
    58.2000        16
    58.6000        12
    59.0000        16
    59.4000        22
    59.8000        16
    60.2000        20
    60.6000        18
    61.0000        24
    61.4000        16
    61.8000        20
    62.2000        18
    62.6000        12
    63.0000        24
    63.4000        16
    63.8000        18
    64.2000        22
    64.6000        26
    65.0000        18
    65.4000         8
    65.8000        14
    66.2000        10
    66.6000        16
    67.0000        18
    67.4000        14
    67.8000        12
    68.2000        14
    68.6000        20
    69.0000        14
    69.4000        14
    69.8000        10
    70.2000        16
    70.6000        12
    71.0000        18
    71.4000        12
    71.8000        20
    72.2000        14
    72.6000        10
    73.0000        18
    73.4000        22
    73.8000        20
    74.2000        24
    74.6000        14
    75.0000        16
    75.4000        14
    75.8000        24
    76.2000        14
    76.6000        14
    77.0000        26
    77.4000        30
    77.8000        18
    78.2000        16
    78.6000        14
    79.0000         8
    79.4000         8
    79.8000        18
    80.2000        14
    80.6000         6
    81.0000        20
    81.4000        12
    81.8000        12
    82.2000        14
    82.6000        10
    83.0000        14
    83.4000        18
    83.8000        12
    84.2000        18
    84.6000        14
    85.0000        12
    85.4000        16
    85.8000        10
    86.2000         8
    86.6000        20
    87.0000        10
    87.4000        10
    87.8000        14
    88.2000        20
    88.6000        12
    89.0000        10
    89.4000        20
    89.8000        12
    90.2000        20
    90.6000        12
    91.0000        10
    91.4000        12
    91.8000        16
    92.2000         8
    92.6000         8
    93.0000        14
    93.4000        12
    93.8000         6
    94.2000         8
    94.6000        10
    95.0000        12
    95.4000         8
    95.8000         4
    96.2000        10
    96.6000        14
    97.0000        12
    97.4000         8
    97.8000        18
    98.2000        14
    98.6000        16
    99.0000         6
    99.4000        14
    99.8000         6
   100.2000        10
   100.6000        18
   101.0000        10
   101.4000         6
   101.8000         6
   102.2000        14
   102.6000         6
   103.0000        10
   103.4000         8
   103.8000        16
   104.2000        12
   104.6000         6
   105.0000        12
   105.4000        12
   105.8000        14
   106.2000         8
   106.6000        10
   107.0000        10
   107.4000         8
   107.8000        12
   108.2000        12
   108.6000        20
   109.0000         8
   109.4000        14
   109.8000        14
   110.2000        12
   110.6000        12
   111.0000         8
   111.4000        14
   111.8000        10
   112.2000        10
   112.6000        18
   113.0000         8
   113.4000        12
   113.8000        12
   114.2000        16
   114.6000        14
   115.0000        12
   115.4000        10
   115.8000        26
   116.2000        14
   116.6000         4
   117.0000        12
   117.4000        18
   117.8000         8
   118.2000         8
   118.6000        12
   119.0000        14
   119.4000        12
   119.8000        14
   120.0000        10